Folder: data

File: xrd.csv
twotheta,intensity
5.0001,5622
5.26613,5427
5.53216,5241
5.79819,5194
6.06422,5004
6.33025,5003
6.59628,4947
6.86231,4949
7.12834,5046
7.39438,5018
7.66041,4944
7.92644,4851
8.19247,5003
8.4585,5069
8.72453,5038
8.99056,5211
9.25659,5083
9.52262,5142
9.78865,5113
10.0547,5217
10.3207,5200
10.5867,5331
10.8528,5175
11.1188,5403
11.3848,5345
11.6509,5427
11.9169,5565
12.1829,5497
12.449,5580
12.715,5614
12.981,5411
13.247,5231
13.5131,5349
13.7791,5082
14.0451,5011
14.3112,4839
14.5772,4706
14.8432,4658
15.1093,4626
15.3753,4487
15.6413,4528
15.9074,4539
16.1734,4339
16.4394,4286
16.7054,4341
16.9715,4232
17.2375,4171
17.5035,4194
17.7696,4116
18.0356,4180
18.3016,4248
18.5677,4101
18.8337,4157
19.0997,4213
19.3658,4063
19.6318,4076
19.8978,4205
20.1638,4159
20.4299,4191
20.6959,4095
20.9619,4218
21.228,4217
21.494,4136
21.76,4252
22.0261,4152
22.2921,4116
22.5581,4169
22.8242,4136
23.0902,4280
23.3562,4174
23.6222,4106
23.8883,4237
24.1543,4140
24.4203,4273
24.6864,4230
24.9524,4344
25.2184,4231
25.4845,4202
25.7505,4257
26.0165,4217
26.2825,4192
26.5486,4368
26.8146,4262
27.0806,4268
27.3467,4224
27.6127,4277
27.8787,4201
28.1448,4203
28.4108,4325
28.6768,4224
28.9429,4155
29.2089,4219
29.4749,4184
29.7409,4207
30.007,4136
30.273,4224
30.539,4138
30.8051,4212
31.0711,4067
31.3371,4196
31.6032,4236
31.8692,4137
32.1352,4155
32.4013,4237
32.6673,4087
32.9333,4100
33.1993,4238
33.4654,4199
33.7314,4244
33.9974,4211
34.2635,4396
34.5295,4290
34.7955,4263
35.0616,4363
35.3276,4475
35.5936,4633
35.8597,4535
36.1257,4495
36.3917,4503
36.6577,4432
36.9238,4507
37.1898,4366
37.4558,4506
37.7219,4220
37.9879,4202
38.2539,4135
38.52,4191
38.786,4086
39.052,4037
39.318,4065
39.5841,3934
39.8501,4044
40.1161,3888
40.3822,4159
40.6482,4114
40.9142,4102
41.1803,4176
41.4463,3969
41.7123,4077
41.9784,4099
42.2444,4152
42.5104,4196
42.7764,4320
43.0425,4194
43.3085,4246
43.5745,4474
43.8406,4361
44.1066,4180
44.3726,4008
44.6387,4040
44.9047,4077
45.1707,3917
45.4368,4015
45.7028,4027
45.9688,4095
46.2348,3900
46.5009,3911
46.7669,3860
47.0329,3970
47.299,3908
47.565,3920
47.831,3836
48.0971,3827
48.3631,3903
48.6291,3734
48.8952,3884
49.1612,3733
49.4272,3746
49.6932,3907
49.9593,3873
50.2253,3641
50.4913,3850
50.7574,3821
51.0234,3779
51.2894,3892
51.5555,3797
51.8215,3866
52.0875,3885
52.3535,3808
52.6196,3905
52.8856,3814
53.1516,3903
53.4177,4001
53.6837,3971
53.9497,3882
54.2158,3798
54.4818,3857
54.7478,3741
55.0139,3867
55.2799,3649
55.5459,3704
55.8119,3634
56.078,3676
56.344,3680
56.61,3660
56.8761,3748
57.1421,3721
57.4081,3707
57.6742,3650
57.9402,3665
58.2062,3746
58.4723,3676
58.7383,3591
59.0043,3723
59.2703,3671
59.5364,3707
59.8024,3609
60.0684,3665
60.3345,3662
60.6005,3746
60.8665,3703
61.1326,3742
61.3986,3879
61.6646,3759
61.9307,3801
62.1967,3756
62.4627,3881
62.7287,3955
62.9948,3913
63.2608,3892
63.5268,3895
63.7929,3772
64.0589,3863
64.3249,3814
64.591,3781
64.857,3617
65.123,3793
65.389,3768
65.6551,3747
65.9211,3673
66.1871,3779
66.4532,3657
66.7192,3665
66.9852,3559
67.2513,3620
67.5173,3480
67.7833,3647
68.0494,3593
68.3154,3455
68.5814,3513
68.8474,3431
69.1135,3519
69.3795,3498
69.6455,3458
69.9116,3378
70.1776,3397
70.4436,3426
70.7097,3577
70.9757,3480
71.2417,3380
71.5078,3329
71.7738,3471
72.0398,3346
72.3058,3388
72.5719,3275
72.8379,3299
73.1039,3315
73.37,3268
73.636,3419
73.902,3226
74.1681,3428
74.4341,3369
74.7001,3364
74.9662,3450
75.2322,3405
75.4982,3490
75.7642,3365
76.0303,3338
76.2963,3317
76.5623,3433
76.8284,3228
77.0944,3236
77.3604,3242
77.6265,3256
77.8925,3207
78.1585,3372
78.4245,3221
78.6906,3220
78.9566,3257
79.2226,3329
79.4887,3273
79.7547,3264
80.0003,3148